# E (eV)  ldosup(E)  ldosdw(E) pdosup(E)  pdosdw(E) 
  13.000  0.371E-01  0.380E-01  0.371E-01  0.380E-01
  13.020  0.383E-01  0.365E-01  0.383E-01  0.365E-01
  13.040  0.410E-01  0.346E-01  0.410E-01  0.346E-01
  13.060  0.455E-01  0.325E-01  0.455E-01  0.325E-01
  13.080  0.518E-01  0.302E-01  0.518E-01  0.302E-01
  13.100  0.597E-01  0.279E-01  0.597E-01  0.279E-01
  13.120  0.689E-01  0.259E-01  0.689E-01  0.259E-01
  13.140  0.788E-01  0.244E-01  0.788E-01  0.244E-01
  13.160  0.888E-01  0.236E-01  0.888E-01  0.236E-01
  13.180  0.983E-01  0.235E-01  0.983E-01  0.235E-01
  13.200  0.107E+00  0.241E-01  0.107E+00  0.241E-01
  13.220  0.113E+00  0.252E-01  0.113E+00  0.252E-01
  13.240  0.117E+00  0.266E-01  0.117E+00  0.266E-01
  13.260  0.120E+00  0.279E-01  0.120E+00  0.279E-01
  13.280  0.120E+00  0.290E-01  0.120E+00  0.290E-01
  13.300  0.117E+00  0.296E-01  0.117E+00  0.296E-01
  13.320  0.114E+00  0.296E-01  0.114E+00  0.296E-01
  13.340  0.109E+00  0.291E-01  0.109E+00  0.291E-01
  13.360  0.104E+00  0.281E-01  0.104E+00  0.281E-01
  13.380  0.990E-01  0.270E-01  0.990E-01  0.270E-01
  13.400  0.942E-01  0.259E-01  0.942E-01  0.259E-01
  13.420  0.900E-01  0.252E-01  0.900E-01  0.252E-01
  13.440  0.862E-01  0.251E-01  0.862E-01  0.251E-01
  13.460  0.830E-01  0.258E-01  0.830E-01  0.258E-01
  13.480  0.799E-01  0.273E-01  0.799E-01  0.273E-01
  13.500  0.770E-01  0.297E-01  0.770E-01  0.297E-01
  13.520  0.741E-01  0.325E-01  0.741E-01  0.325E-01
  13.540  0.714E-01  0.357E-01  0.714E-01  0.357E-01
  13.560  0.691E-01  0.388E-01  0.691E-01  0.388E-01
  13.580  0.673E-01  0.416E-01  0.673E-01  0.416E-01
  13.600  0.666E-01  0.438E-01  0.666E-01  0.438E-01
  13.620  0.669E-01  0.453E-01  0.669E-01  0.453E-01
  13.640  0.685E-01  0.463E-01  0.685E-01  0.463E-01
  13.660  0.711E-01  0.469E-01  0.711E-01  0.469E-01
  13.680  0.744E-01  0.473E-01  0.744E-01  0.473E-01
  13.700  0.780E-01  0.480E-01  0.780E-01  0.480E-01
  13.720  0.814E-01  0.491E-01  0.814E-01  0.491E-01
  13.740  0.841E-01  0.508E-01  0.841E-01  0.508E-01
  13.760  0.857E-01  0.531E-01  0.857E-01  0.531E-01
  13.780  0.862E-01  0.556E-01  0.862E-01  0.556E-01
  13.800  0.854E-01  0.582E-01  0.854E-01  0.582E-01
  13.820  0.836E-01  0.605E-01  0.836E-01  0.605E-01
  13.840  0.809E-01  0.621E-01  0.809E-01  0.621E-01
  13.860  0.776E-01  0.627E-01  0.776E-01  0.627E-01
  13.880  0.741E-01  0.621E-01  0.741E-01  0.621E-01
  13.900  0.704E-01  0.604E-01  0.704E-01  0.604E-01
  13.920  0.670E-01  0.575E-01  0.670E-01  0.575E-01
  13.940  0.639E-01  0.537E-01  0.639E-01  0.537E-01
  13.960  0.612E-01  0.493E-01  0.612E-01  0.493E-01
  13.980  0.590E-01  0.447E-01  0.590E-01  0.447E-01
  14.000  0.571E-01  0.403E-01  0.571E-01  0.403E-01
  14.020  0.556E-01  0.365E-01  0.556E-01  0.365E-01
  14.040  0.542E-01  0.336E-01  0.542E-01  0.336E-01
  14.060  0.527E-01  0.320E-01  0.527E-01  0.320E-01
  14.080  0.511E-01  0.318E-01  0.511E-01  0.318E-01
  14.100  0.492E-01  0.328E-01  0.492E-01  0.328E-01
  14.120  0.470E-01  0.349E-01  0.470E-01  0.349E-01
  14.140  0.444E-01  0.377E-01  0.444E-01  0.377E-01
  14.160  0.414E-01  0.407E-01  0.414E-01  0.407E-01
  14.180  0.383E-01  0.436E-01  0.383E-01  0.436E-01
  14.200  0.351E-01  0.460E-01  0.351E-01  0.460E-01
  14.220  0.320E-01  0.477E-01  0.320E-01  0.477E-01
  14.240  0.291E-01  0.487E-01  0.291E-01  0.487E-01
  14.260  0.264E-01  0.492E-01  0.264E-01  0.492E-01
  14.280  0.241E-01  0.496E-01  0.241E-01  0.496E-01
  14.300  0.221E-01  0.504E-01  0.221E-01  0.504E-01
  14.320  0.204E-01  0.518E-01  0.204E-01  0.518E-01
  14.340  0.190E-01  0.543E-01  0.190E-01  0.543E-01
  14.360  0.177E-01  0.578E-01  0.177E-01  0.578E-01
  14.380  0.165E-01  0.624E-01  0.165E-01  0.624E-01
  14.400  0.154E-01  0.678E-01  0.154E-01  0.678E-01
  14.420  0.142E-01  0.738E-01  0.142E-01  0.738E-01
  14.440  0.130E-01  0.800E-01  0.130E-01  0.800E-01
  14.460  0.117E-01  0.860E-01  0.117E-01  0.860E-01
  14.480  0.105E-01  0.914E-01  0.105E-01  0.914E-01
  14.500  0.928E-02  0.960E-01  0.928E-02  0.960E-01
  14.520  0.814E-02  0.997E-01  0.814E-02  0.997E-01
  14.540  0.709E-02  0.102E+00  0.709E-02  0.102E+00
  14.560  0.617E-02  0.104E+00  0.617E-02  0.104E+00
  14.580  0.538E-02  0.104E+00  0.538E-02  0.104E+00
  14.600  0.472E-02  0.103E+00  0.472E-02  0.103E+00
  14.620  0.418E-02  0.102E+00  0.418E-02  0.102E+00
  14.640  0.375E-02  0.992E-01  0.375E-02  0.992E-01
  14.660  0.343E-02  0.958E-01  0.343E-02  0.958E-01
  14.680  0.320E-02  0.916E-01  0.320E-02  0.916E-01
  14.700  0.305E-02  0.868E-01  0.305E-02  0.868E-01
  14.720  0.297E-02  0.816E-01  0.297E-02  0.816E-01
  14.740  0.296E-02  0.763E-01  0.296E-02  0.763E-01
  14.760  0.301E-02  0.712E-01  0.301E-02  0.712E-01
  14.780  0.313E-02  0.666E-01  0.313E-02  0.666E-01
  14.800  0.331E-02  0.626E-01  0.331E-02  0.626E-01
  14.820  0.357E-02  0.594E-01  0.357E-02  0.594E-01
  14.840  0.388E-02  0.570E-01  0.388E-02  0.570E-01
  14.860  0.424E-02  0.553E-01  0.424E-02  0.553E-01
  14.880  0.463E-02  0.542E-01  0.463E-02  0.542E-01
  14.900  0.502E-02  0.535E-01  0.502E-02  0.535E-01
  14.920  0.538E-02  0.532E-01  0.538E-02  0.532E-01
  14.940  0.568E-02  0.531E-01  0.568E-02  0.531E-01
  14.960  0.590E-02  0.534E-01  0.590E-02  0.534E-01
  14.980  0.602E-02  0.539E-01  0.602E-02  0.539E-01
  15.000  0.606E-02  0.548E-01  0.606E-02  0.548E-01
  15.020  0.603E-02  0.560E-01  0.603E-02  0.560E-01
  15.040  0.594E-02  0.576E-01  0.594E-02  0.576E-01
  15.060  0.583E-02  0.593E-01  0.583E-02  0.593E-01
  15.080  0.570E-02  0.611E-01  0.570E-02  0.611E-01
  15.100  0.557E-02  0.627E-01  0.557E-02  0.627E-01
  15.120  0.546E-02  0.639E-01  0.546E-02  0.639E-01
  15.140  0.536E-02  0.646E-01  0.536E-02  0.646E-01
  15.160  0.530E-02  0.647E-01  0.530E-02  0.647E-01
  15.180  0.529E-02  0.642E-01  0.529E-02  0.642E-01
  15.200  0.534E-02  0.632E-01  0.534E-02  0.632E-01
  15.220  0.549E-02  0.618E-01  0.549E-02  0.618E-01
  15.240  0.574E-02  0.602E-01  0.574E-02  0.602E-01
  15.260  0.609E-02  0.584E-01  0.609E-02  0.584E-01
  15.280  0.653E-02  0.566E-01  0.653E-02  0.566E-01
  15.300  0.704E-02  0.548E-01  0.704E-02  0.548E-01
  15.320  0.758E-02  0.529E-01  0.758E-02  0.529E-01
  15.340  0.811E-02  0.512E-01  0.811E-02  0.512E-01
  15.360  0.859E-02  0.494E-01  0.859E-02  0.494E-01
  15.380  0.901E-02  0.476E-01  0.901E-02  0.476E-01
  15.400  0.934E-02  0.459E-01  0.934E-02  0.459E-01
  15.420  0.957E-02  0.443E-01  0.957E-02  0.443E-01
  15.440  0.969E-02  0.428E-01  0.969E-02  0.428E-01
  15.460  0.972E-02  0.414E-01  0.972E-02  0.414E-01
  15.480  0.964E-02  0.402E-01  0.964E-02  0.402E-01
  15.500  0.947E-02  0.391E-01  0.947E-02  0.391E-01
  15.520  0.922E-02  0.381E-01  0.922E-02  0.381E-01
  15.540  0.891E-02  0.371E-01  0.891E-02  0.371E-01
  15.560  0.857E-02  0.362E-01  0.857E-02  0.362E-01
  15.580  0.822E-02  0.353E-01  0.822E-02  0.353E-01
  15.600  0.788E-02  0.345E-01  0.788E-02  0.345E-01
  15.620  0.759E-02  0.336E-01  0.759E-02  0.336E-01
  15.640  0.735E-02  0.327E-01  0.735E-02  0.327E-01
  15.660  0.715E-02  0.316E-01  0.715E-02  0.316E-01
  15.680  0.700E-02  0.304E-01  0.700E-02  0.304E-01
  15.700  0.688E-02  0.291E-01  0.688E-02  0.291E-01
  15.720  0.675E-02  0.274E-01  0.675E-02  0.274E-01
  15.740  0.662E-02  0.256E-01  0.662E-02  0.256E-01
  15.760  0.645E-02  0.235E-01  0.645E-02  0.235E-01
  15.780  0.624E-02  0.213E-01  0.624E-02  0.213E-01
  15.800  0.599E-02  0.191E-01  0.599E-02  0.191E-01
  15.820  0.570E-02  0.169E-01  0.570E-02  0.169E-01
  15.840  0.539E-02  0.149E-01  0.539E-02  0.149E-01
  15.860  0.508E-02  0.132E-01  0.508E-02  0.132E-01
  15.880  0.477E-02  0.117E-01  0.477E-02  0.117E-01
  15.900  0.449E-02  0.105E-01  0.449E-02  0.105E-01
  15.920  0.426E-02  0.968E-02  0.426E-02  0.968E-02
  15.940  0.407E-02  0.906E-02  0.407E-02  0.906E-02
  15.960  0.393E-02  0.862E-02  0.393E-02  0.862E-02
  15.980  0.383E-02  0.830E-02  0.383E-02  0.830E-02
  16.000  0.376E-02  0.801E-02  0.376E-02  0.801E-02
  16.020  0.371E-02  0.769E-02  0.371E-02  0.769E-02
  16.040  0.367E-02  0.730E-02  0.367E-02  0.730E-02
  16.060  0.363E-02  0.679E-02  0.363E-02  0.679E-02
  16.080  0.360E-02  0.616E-02  0.360E-02  0.616E-02
  16.100  0.357E-02  0.544E-02  0.357E-02  0.544E-02
  16.120  0.356E-02  0.466E-02  0.356E-02  0.466E-02
  16.140  0.357E-02  0.387E-02  0.357E-02  0.387E-02
  16.160  0.360E-02  0.312E-02  0.360E-02  0.312E-02
  16.180  0.366E-02  0.245E-02  0.366E-02  0.245E-02
  16.200  0.372E-02  0.188E-02  0.372E-02  0.188E-02
  16.220  0.380E-02  0.144E-02  0.380E-02  0.144E-02
  16.240  0.386E-02  0.113E-02  0.386E-02  0.113E-02
  16.260  0.390E-02  0.942E-03  0.390E-02  0.942E-03
  16.280  0.391E-02  0.862E-03  0.391E-02  0.862E-03
  16.300  0.390E-02  0.873E-03  0.390E-02  0.873E-03
  16.320  0.386E-02  0.956E-03  0.386E-02  0.956E-03
  16.340  0.381E-02  0.109E-02  0.381E-02  0.109E-02
  16.360  0.374E-02  0.126E-02  0.374E-02  0.126E-02
  16.380  0.367E-02  0.145E-02  0.367E-02  0.145E-02
  16.400  0.360E-02  0.165E-02  0.360E-02  0.165E-02
  16.420  0.352E-02  0.184E-02  0.352E-02  0.184E-02
  16.440  0.343E-02  0.201E-02  0.343E-02  0.201E-02
  16.460  0.334E-02  0.217E-02  0.334E-02  0.217E-02
  16.480  0.325E-02  0.232E-02  0.325E-02  0.232E-02
  16.500  0.316E-02  0.245E-02  0.316E-02  0.245E-02
  16.520  0.310E-02  0.258E-02  0.310E-02  0.258E-02
  16.540  0.309E-02  0.270E-02  0.309E-02  0.270E-02
  16.560  0.313E-02  0.282E-02  0.313E-02  0.282E-02
  16.580  0.326E-02  0.294E-02  0.326E-02  0.294E-02
  16.600  0.348E-02  0.306E-02  0.348E-02  0.306E-02
  16.620  0.379E-02  0.316E-02  0.379E-02  0.316E-02
  16.640  0.419E-02  0.324E-02  0.419E-02  0.324E-02
  16.660  0.468E-02  0.331E-02  0.468E-02  0.331E-02
  16.680  0.523E-02  0.335E-02  0.523E-02  0.335E-02
  16.700  0.584E-02  0.337E-02  0.584E-02  0.337E-02
  16.720  0.646E-02  0.339E-02  0.646E-02  0.339E-02
  16.740  0.707E-02  0.340E-02  0.707E-02  0.340E-02
  16.760  0.764E-02  0.341E-02  0.764E-02  0.341E-02
  16.780  0.813E-02  0.341E-02  0.813E-02  0.341E-02
  16.800  0.852E-02  0.342E-02  0.852E-02  0.342E-02
  16.820  0.879E-02  0.340E-02  0.879E-02  0.340E-02
  16.840  0.892E-02  0.336E-02  0.892E-02  0.336E-02
  16.860  0.892E-02  0.329E-02  0.892E-02  0.329E-02
  16.880  0.881E-02  0.319E-02  0.881E-02  0.319E-02
  16.900  0.859E-02  0.306E-02  0.859E-02  0.306E-02
  16.920  0.831E-02  0.293E-02  0.831E-02  0.293E-02
  16.940  0.797E-02  0.281E-02  0.797E-02  0.281E-02
  16.960  0.762E-02  0.273E-02  0.762E-02  0.273E-02
  16.980  0.727E-02  0.271E-02  0.727E-02  0.271E-02
  17.000  0.693E-02  0.274E-02  0.693E-02  0.274E-02
  17.020  0.663E-02  0.283E-02  0.663E-02  0.283E-02
  17.040  0.637E-02  0.296E-02  0.637E-02  0.296E-02
  17.060  0.616E-02  0.310E-02  0.616E-02  0.310E-02
  17.080  0.601E-02  0.322E-02  0.601E-02  0.322E-02
  17.100  0.591E-02  0.330E-02  0.591E-02  0.330E-02
  17.120  0.586E-02  0.331E-02  0.586E-02  0.331E-02
  17.140  0.587E-02  0.326E-02  0.587E-02  0.326E-02
  17.160  0.594E-02  0.314E-02  0.594E-02  0.314E-02
  17.180  0.606E-02  0.297E-02  0.606E-02  0.297E-02
  17.200  0.623E-02  0.278E-02  0.623E-02  0.278E-02
  17.220  0.645E-02  0.257E-02  0.645E-02  0.257E-02
  17.240  0.670E-02  0.238E-02  0.670E-02  0.238E-02
  17.260  0.696E-02  0.222E-02  0.696E-02  0.222E-02
  17.280  0.722E-02  0.209E-02  0.722E-02  0.209E-02
  17.300  0.745E-02  0.201E-02  0.745E-02  0.201E-02
  17.320  0.764E-02  0.197E-02  0.764E-02  0.197E-02
  17.340  0.777E-02  0.198E-02  0.777E-02  0.198E-02
  17.360  0.784E-02  0.203E-02  0.784E-02  0.203E-02
  17.380  0.785E-02  0.211E-02  0.785E-02  0.211E-02
  17.400  0.782E-02  0.224E-02  0.782E-02  0.224E-02
  17.420  0.776E-02  0.240E-02  0.776E-02  0.240E-02
  17.440  0.770E-02  0.260E-02  0.770E-02  0.260E-02
  17.460  0.766E-02  0.283E-02  0.766E-02  0.283E-02
  17.480  0.768E-02  0.308E-02  0.768E-02  0.308E-02
  17.500  0.778E-02  0.334E-02  0.778E-02  0.334E-02
  17.520  0.796E-02  0.359E-02  0.796E-02  0.359E-02
  17.540  0.824E-02  0.381E-02  0.824E-02  0.381E-02
  17.560  0.859E-02  0.399E-02  0.859E-02  0.399E-02
  17.580  0.900E-02  0.410E-02  0.900E-02  0.410E-02
  17.600  0.942E-02  0.413E-02  0.942E-02  0.413E-02
  17.620  0.980E-02  0.410E-02  0.980E-02  0.410E-02
  17.640  0.101E-01  0.400E-02  0.101E-01  0.400E-02
  17.660  0.102E-01  0.384E-02  0.102E-01  0.384E-02
  17.680  0.102E-01  0.364E-02  0.102E-01  0.364E-02
  17.700  0.100E-01  0.340E-02  0.100E-01  0.340E-02
  17.720  0.960E-02  0.315E-02  0.960E-02  0.315E-02
  17.740  0.904E-02  0.289E-02  0.904E-02  0.289E-02
  17.760  0.834E-02  0.263E-02  0.834E-02  0.263E-02
  17.780  0.756E-02  0.237E-02  0.756E-02  0.237E-02
  17.800  0.673E-02  0.212E-02  0.673E-02  0.212E-02
  17.820  0.592E-02  0.188E-02  0.592E-02  0.188E-02
  17.840  0.517E-02  0.167E-02  0.517E-02  0.167E-02
  17.860  0.454E-02  0.148E-02  0.454E-02  0.148E-02
  17.880  0.406E-02  0.131E-02  0.406E-02  0.131E-02
  17.900  0.377E-02  0.116E-02  0.377E-02  0.116E-02
  17.920  0.370E-02  0.103E-02  0.370E-02  0.103E-02
  17.940  0.385E-02  0.913E-03  0.385E-02  0.913E-03
  17.960  0.423E-02  0.801E-03  0.423E-02  0.801E-03
  17.980  0.481E-02  0.695E-03  0.481E-02  0.695E-03
  18.000  0.555E-02  0.594E-03  0.555E-02  0.594E-03
  18.020  0.641E-02  0.499E-03  0.641E-02  0.499E-03
  18.040  0.732E-02  0.413E-03  0.732E-02  0.413E-03
  18.060  0.819E-02  0.340E-03  0.819E-02  0.340E-03
  18.080  0.896E-02  0.285E-03  0.896E-02  0.285E-03
  18.100  0.955E-02  0.254E-03  0.955E-02  0.254E-03
  18.120  0.989E-02  0.251E-03  0.989E-02  0.251E-03
  18.140  0.996E-02  0.285E-03  0.996E-02  0.285E-03
  18.160  0.974E-02  0.360E-03  0.974E-02  0.360E-03
  18.180  0.926E-02  0.484E-03  0.926E-02  0.484E-03
  18.200  0.858E-02  0.659E-03  0.858E-02  0.659E-03
  18.220  0.777E-02  0.885E-03  0.777E-02  0.885E-03
  18.240  0.693E-02  0.116E-02  0.693E-02  0.116E-02
  18.260  0.615E-02  0.147E-02  0.615E-02  0.147E-02
  18.280  0.550E-02  0.180E-02  0.550E-02  0.180E-02
  18.300  0.505E-02  0.212E-02  0.505E-02  0.212E-02
  18.320  0.482E-02  0.240E-02  0.482E-02  0.240E-02
  18.340  0.482E-02  0.263E-02  0.482E-02  0.263E-02
  18.360  0.502E-02  0.278E-02  0.502E-02  0.278E-02
  18.380  0.537E-02  0.283E-02  0.537E-02  0.283E-02
  18.400  0.581E-02  0.278E-02  0.581E-02  0.278E-02
  18.420  0.627E-02  0.264E-02  0.627E-02  0.264E-02
  18.440  0.668E-02  0.243E-02  0.668E-02  0.243E-02
  18.460  0.698E-02  0.217E-02  0.698E-02  0.217E-02
  18.480  0.715E-02  0.188E-02  0.715E-02  0.188E-02
  18.500  0.718E-02  0.159E-02  0.718E-02  0.159E-02
  18.520  0.710E-02  0.132E-02  0.710E-02  0.132E-02
  18.540  0.694E-02  0.110E-02  0.694E-02  0.110E-02
  18.560  0.677E-02  0.924E-03  0.677E-02  0.924E-03
  18.580  0.666E-02  0.809E-03  0.666E-02  0.809E-03
  18.600  0.664E-02  0.757E-03  0.664E-02  0.757E-03
  18.620  0.675E-02  0.774E-03  0.675E-02  0.774E-03
  18.640  0.700E-02  0.863E-03  0.700E-02  0.863E-03
  18.660  0.737E-02  0.103E-02  0.737E-02  0.103E-02
  18.680  0.781E-02  0.127E-02  0.781E-02  0.127E-02
  18.700  0.829E-02  0.158E-02  0.829E-02  0.158E-02
  18.720  0.873E-02  0.196E-02  0.873E-02  0.196E-02
  18.740  0.908E-02  0.240E-02  0.908E-02  0.240E-02
  18.760  0.929E-02  0.287E-02  0.929E-02  0.287E-02
  18.780  0.934E-02  0.335E-02  0.934E-02  0.335E-02
  18.800  0.920E-02  0.382E-02  0.920E-02  0.382E-02
  18.820  0.887E-02  0.426E-02  0.887E-02  0.426E-02
  18.840  0.837E-02  0.463E-02  0.837E-02  0.463E-02
  18.860  0.773E-02  0.493E-02  0.773E-02  0.493E-02
  18.880  0.701E-02  0.515E-02  0.701E-02  0.515E-02
  18.900  0.626E-02  0.527E-02  0.626E-02  0.527E-02
  18.920  0.556E-02  0.532E-02  0.556E-02  0.532E-02
  18.940  0.496E-02  0.530E-02  0.496E-02  0.530E-02
  18.960  0.451E-02  0.521E-02  0.451E-02  0.521E-02
  18.980  0.428E-02  0.509E-02  0.428E-02  0.509E-02
  19.000  0.431E-02  0.493E-02  0.431E-02  0.493E-02
  19.020  0.460E-02  0.476E-02  0.460E-02  0.476E-02
  19.040  0.519E-02  0.459E-02  0.519E-02  0.459E-02
  19.060  0.603E-02  0.443E-02  0.603E-02  0.443E-02
  19.080  0.709E-02  0.430E-02  0.709E-02  0.430E-02
  19.100  0.828E-02  0.419E-02  0.828E-02  0.419E-02
  19.120  0.949E-02  0.412E-02  0.949E-02  0.412E-02
  19.140  0.106E-01  0.408E-02  0.106E-01  0.408E-02
  19.160  0.115E-01  0.406E-02  0.115E-01  0.406E-02
  19.180  0.120E-01  0.406E-02  0.120E-01  0.406E-02
  19.200  0.121E-01  0.407E-02  0.121E-01  0.407E-02
  19.220  0.119E-01  0.409E-02  0.119E-01  0.409E-02
  19.240  0.113E-01  0.412E-02  0.113E-01  0.412E-02
  19.260  0.106E-01  0.414E-02  0.106E-01  0.414E-02
  19.280  0.969E-02  0.416E-02  0.969E-02  0.416E-02
  19.300  0.888E-02  0.417E-02  0.888E-02  0.417E-02
  19.320  0.824E-02  0.416E-02  0.824E-02  0.416E-02
  19.340  0.784E-02  0.412E-02  0.784E-02  0.412E-02
  19.360  0.773E-02  0.404E-02  0.773E-02  0.404E-02
  19.380  0.787E-02  0.392E-02  0.787E-02  0.392E-02
  19.400  0.822E-02  0.376E-02  0.822E-02  0.376E-02
  19.420  0.870E-02  0.357E-02  0.870E-02  0.357E-02
  19.440  0.923E-02  0.336E-02  0.923E-02  0.336E-02
  19.460  0.974E-02  0.316E-02  0.974E-02  0.316E-02
  19.480  0.102E-01  0.296E-02  0.102E-01  0.296E-02
  19.500  0.105E-01  0.279E-02  0.105E-01  0.279E-02
  19.520  0.108E-01  0.265E-02  0.108E-01  0.265E-02
  19.540  0.109E-01  0.253E-02  0.109E-01  0.253E-02
  19.560  0.110E-01  0.242E-02  0.110E-01  0.242E-02
  19.580  0.110E-01  0.233E-02  0.110E-01  0.233E-02
  19.600  0.110E-01  0.223E-02  0.110E-01  0.223E-02
  19.620  0.109E-01  0.212E-02  0.109E-01  0.212E-02
  19.640  0.107E-01  0.200E-02  0.107E-01  0.200E-02
  19.660  0.105E-01  0.187E-02  0.105E-01  0.187E-02
  19.680  0.101E-01  0.173E-02  0.101E-01  0.173E-02
  19.700  0.973E-02  0.159E-02  0.973E-02  0.159E-02
  19.720  0.925E-02  0.147E-02  0.925E-02  0.147E-02
  19.740  0.870E-02  0.137E-02  0.870E-02  0.137E-02
  19.760  0.814E-02  0.131E-02  0.814E-02  0.131E-02
  19.780  0.760E-02  0.130E-02  0.760E-02  0.130E-02
  19.800  0.716E-02  0.135E-02  0.716E-02  0.135E-02
  19.820  0.688E-02  0.147E-02  0.688E-02  0.147E-02
  19.840  0.681E-02  0.168E-02  0.681E-02  0.168E-02
  19.860  0.699E-02  0.198E-02  0.699E-02  0.198E-02
  19.880  0.744E-02  0.236E-02  0.744E-02  0.236E-02
  19.900  0.814E-02  0.284E-02  0.814E-02  0.284E-02
  19.920  0.906E-02  0.338E-02  0.906E-02  0.338E-02
  19.940  0.101E-01  0.398E-02  0.101E-01  0.398E-02
  19.960  0.112E-01  0.460E-02  0.112E-01  0.460E-02
  19.980  0.123E-01  0.521E-02  0.123E-01  0.521E-02
  20.000  0.133E-01  0.578E-02  0.133E-01  0.578E-02
  20.020  0.140E-01  0.626E-02  0.140E-01  0.626E-02
  20.040  0.143E-01  0.664E-02  0.143E-01  0.664E-02
  20.060  0.144E-01  0.689E-02  0.144E-01  0.689E-02
  20.080  0.141E-01  0.701E-02  0.141E-01  0.701E-02
  20.100  0.134E-01  0.701E-02  0.134E-01  0.701E-02
  20.120  0.125E-01  0.689E-02  0.125E-01  0.689E-02
  20.140  0.114E-01  0.670E-02  0.114E-01  0.670E-02
  20.160  0.102E-01  0.645E-02  0.102E-01  0.645E-02
  20.180  0.900E-02  0.619E-02  0.900E-02  0.619E-02
  20.200  0.781E-02  0.592E-02  0.781E-02  0.592E-02
  20.220  0.671E-02  0.566E-02  0.671E-02  0.566E-02
  20.240  0.572E-02  0.544E-02  0.572E-02  0.544E-02
  20.260  0.486E-02  0.524E-02  0.486E-02  0.524E-02
  20.280  0.414E-02  0.507E-02  0.414E-02  0.507E-02
  20.300  0.356E-02  0.495E-02  0.356E-02  0.495E-02
  20.320  0.312E-02  0.487E-02  0.312E-02  0.487E-02
  20.340  0.282E-02  0.485E-02  0.282E-02  0.485E-02
  20.360  0.265E-02  0.491E-02  0.265E-02  0.491E-02
  20.380  0.260E-02  0.507E-02  0.260E-02  0.507E-02
  20.400  0.266E-02  0.532E-02  0.266E-02  0.532E-02
  20.420  0.285E-02  0.565E-02  0.285E-02  0.565E-02
  20.440  0.316E-02  0.603E-02  0.316E-02  0.603E-02
  20.460  0.361E-02  0.642E-02  0.361E-02  0.642E-02
  20.480  0.422E-02  0.676E-02  0.422E-02  0.676E-02
  20.500  0.499E-02  0.700E-02  0.499E-02  0.700E-02
  20.520  0.590E-02  0.709E-02  0.590E-02  0.709E-02
  20.540  0.695E-02  0.700E-02  0.695E-02  0.700E-02
  20.560  0.807E-02  0.674E-02  0.807E-02  0.674E-02
  20.580  0.924E-02  0.633E-02  0.924E-02  0.633E-02
  20.600  0.104E-01  0.581E-02  0.104E-01  0.581E-02
  20.620  0.115E-01  0.525E-02  0.115E-01  0.525E-02
  20.640  0.125E-01  0.469E-02  0.125E-01  0.469E-02
  20.660  0.134E-01  0.421E-02  0.134E-01  0.421E-02
  20.680  0.141E-01  0.384E-02  0.141E-01  0.384E-02
  20.700  0.147E-01  0.362E-02  0.147E-01  0.362E-02
  20.720  0.151E-01  0.355E-02  0.151E-01  0.355E-02
  20.740  0.153E-01  0.363E-02  0.153E-01  0.363E-02
  20.760  0.154E-01  0.385E-02  0.154E-01  0.385E-02
  20.780  0.153E-01  0.419E-02  0.153E-01  0.419E-02
  20.800  0.150E-01  0.462E-02  0.150E-01  0.462E-02
  20.820  0.145E-01  0.511E-02  0.145E-01  0.511E-02
  20.840  0.139E-01  0.560E-02  0.139E-01  0.560E-02
  20.860  0.133E-01  0.606E-02  0.133E-01  0.606E-02
  20.880  0.126E-01  0.646E-02  0.126E-01  0.646E-02
  20.900  0.119E-01  0.675E-02  0.119E-01  0.675E-02
  20.920  0.112E-01  0.693E-02  0.112E-01  0.693E-02
  20.940  0.106E-01  0.700E-02  0.106E-01  0.700E-02
  20.960  0.100E-01  0.697E-02  0.100E-01  0.697E-02
  20.980  0.960E-02  0.688E-02  0.960E-02  0.688E-02
  21.000  0.929E-02  0.677E-02  0.929E-02  0.677E-02
  21.020  0.912E-02  0.668E-02  0.912E-02  0.668E-02
  21.040  0.910E-02  0.663E-02  0.910E-02  0.663E-02
  21.060  0.924E-02  0.662E-02  0.924E-02  0.662E-02
  21.080  0.950E-02  0.665E-02  0.950E-02  0.665E-02
  21.100  0.988E-02  0.670E-02  0.988E-02  0.670E-02
  21.120  0.103E-01  0.673E-02  0.103E-01  0.673E-02
  21.140  0.108E-01  0.672E-02  0.108E-01  0.672E-02
  21.160  0.111E-01  0.665E-02  0.111E-01  0.665E-02
  21.180  0.114E-01  0.651E-02  0.114E-01  0.651E-02
  21.200  0.115E-01  0.631E-02  0.115E-01  0.631E-02
  21.220  0.114E-01  0.607E-02  0.114E-01  0.607E-02
  21.240  0.111E-01  0.583E-02  0.111E-01  0.583E-02
  21.260  0.106E-01  0.561E-02  0.106E-01  0.561E-02
  21.280  0.991E-02  0.544E-02  0.991E-02  0.544E-02
  21.300  0.905E-02  0.536E-02  0.905E-02  0.536E-02
  21.320  0.807E-02  0.538E-02  0.807E-02  0.538E-02
  21.340  0.701E-02  0.549E-02  0.701E-02  0.549E-02
  21.360  0.592E-02  0.571E-02  0.592E-02  0.571E-02
  21.380  0.487E-02  0.599E-02  0.487E-02  0.599E-02
  21.400  0.390E-02  0.631E-02  0.390E-02  0.631E-02
  21.420  0.305E-02  0.662E-02  0.305E-02  0.662E-02
  21.440  0.237E-02  0.687E-02  0.237E-02  0.687E-02
  21.460  0.190E-02  0.702E-02  0.190E-02  0.702E-02
  21.480  0.165E-02  0.706E-02  0.165E-02  0.706E-02
  21.500  0.167E-02  0.699E-02  0.167E-02  0.699E-02
  21.520  0.198E-02  0.687E-02  0.198E-02  0.687E-02
  21.540  0.260E-02  0.675E-02  0.260E-02  0.675E-02
  21.560  0.357E-02  0.671E-02  0.357E-02  0.671E-02
  21.580  0.488E-02  0.681E-02  0.488E-02  0.681E-02
  21.600  0.649E-02  0.711E-02  0.649E-02  0.711E-02
  21.620  0.835E-02  0.762E-02  0.835E-02  0.762E-02
  21.640  0.103E-01  0.831E-02  0.103E-01  0.831E-02
  21.660  0.122E-01  0.911E-02  0.122E-01  0.911E-02
  21.680  0.139E-01  0.992E-02  0.139E-01  0.992E-02
  21.700  0.152E-01  0.106E-01  0.152E-01  0.106E-01
  21.720  0.159E-01  0.111E-01  0.159E-01  0.111E-01
  21.740  0.160E-01  0.113E-01  0.160E-01  0.113E-01
  21.760  0.154E-01  0.112E-01  0.154E-01  0.112E-01
  21.780  0.143E-01  0.108E-01  0.143E-01  0.108E-01
  21.800  0.126E-01  0.100E-01  0.126E-01  0.100E-01
  21.820  0.107E-01  0.903E-02  0.107E-01  0.903E-02
  21.840  0.875E-02  0.791E-02  0.875E-02  0.791E-02
  21.860  0.686E-02  0.676E-02  0.686E-02  0.676E-02
  21.880  0.518E-02  0.566E-02  0.518E-02  0.566E-02
  21.900  0.378E-02  0.469E-02  0.378E-02  0.469E-02
  21.920  0.270E-02  0.389E-02  0.270E-02  0.389E-02
  21.940  0.192E-02  0.330E-02  0.192E-02  0.330E-02
  21.960  0.141E-02  0.292E-02  0.141E-02  0.292E-02
  21.980  0.112E-02  0.274E-02  0.112E-02  0.274E-02
  22.000  0.981E-03  0.272E-02  0.981E-03  0.272E-02
  22.020  0.956E-03  0.284E-02  0.956E-03  0.284E-02
  22.040  0.100E-02  0.304E-02  0.100E-02  0.304E-02
  22.060  0.108E-02  0.328E-02  0.108E-02  0.328E-02
  22.080  0.119E-02  0.353E-02  0.119E-02  0.353E-02
  22.100  0.132E-02  0.378E-02  0.132E-02  0.378E-02
  22.120  0.149E-02  0.403E-02  0.149E-02  0.403E-02
  22.140  0.172E-02  0.429E-02  0.172E-02  0.429E-02
  22.160  0.205E-02  0.458E-02  0.205E-02  0.458E-02
  22.180  0.250E-02  0.491E-02  0.250E-02  0.491E-02
  22.200  0.311E-02  0.530E-02  0.311E-02  0.530E-02
  22.220  0.390E-02  0.575E-02  0.390E-02  0.575E-02
  22.240  0.487E-02  0.623E-02  0.487E-02  0.623E-02
  22.260  0.597E-02  0.674E-02  0.597E-02  0.674E-02
  22.280  0.716E-02  0.724E-02  0.716E-02  0.724E-02
  22.300  0.836E-02  0.772E-02  0.836E-02  0.772E-02
  22.320  0.946E-02  0.818E-02  0.946E-02  0.818E-02
  22.340  0.104E-01  0.862E-02  0.104E-01  0.862E-02
  22.360  0.111E-01  0.907E-02  0.111E-01  0.907E-02
  22.380  0.115E-01  0.957E-02  0.115E-01  0.957E-02
  22.400  0.116E-01  0.101E-01  0.116E-01  0.101E-01
  22.420  0.115E-01  0.107E-01  0.115E-01  0.107E-01
  22.440  0.113E-01  0.114E-01  0.113E-01  0.114E-01
  22.460  0.111E-01  0.120E-01  0.111E-01  0.120E-01
  22.480  0.110E-01  0.125E-01  0.110E-01  0.125E-01
  22.500  0.110E-01  0.129E-01  0.110E-01  0.129E-01
  22.520  0.110E-01  0.130E-01  0.110E-01  0.130E-01
  22.540  0.111E-01  0.129E-01  0.111E-01  0.129E-01
  22.560  0.112E-01  0.126E-01  0.112E-01  0.126E-01
  22.580  0.111E-01  0.120E-01  0.111E-01  0.120E-01
  22.600  0.108E-01  0.112E-01  0.108E-01  0.112E-01
  22.620  0.102E-01  0.103E-01  0.102E-01  0.103E-01
  22.640  0.931E-02  0.938E-02  0.931E-02  0.938E-02
  22.660  0.828E-02  0.839E-02  0.828E-02  0.839E-02
  22.680  0.716E-02  0.740E-02  0.716E-02  0.740E-02
  22.700  0.607E-02  0.646E-02  0.607E-02  0.646E-02
  22.720  0.512E-02  0.558E-02  0.512E-02  0.558E-02
  22.740  0.441E-02  0.479E-02  0.441E-02  0.479E-02
  22.760  0.400E-02  0.411E-02  0.400E-02  0.411E-02
  22.780  0.391E-02  0.354E-02  0.391E-02  0.354E-02
  22.800  0.414E-02  0.311E-02  0.414E-02  0.311E-02
  22.820  0.466E-02  0.283E-02  0.466E-02  0.283E-02
  22.840  0.540E-02  0.272E-02  0.540E-02  0.272E-02
  22.860  0.630E-02  0.278E-02  0.630E-02  0.278E-02
  22.880  0.727E-02  0.305E-02  0.727E-02  0.305E-02
  22.900  0.820E-02  0.352E-02  0.820E-02  0.352E-02
  22.920  0.902E-02  0.418E-02  0.902E-02  0.418E-02
  22.940  0.964E-02  0.501E-02  0.964E-02  0.501E-02
  22.960  0.999E-02  0.597E-02  0.999E-02  0.597E-02
  22.980  0.101E-01  0.699E-02  0.101E-01  0.699E-02
  23.000  0.981E-02  0.799E-02  0.981E-02  0.799E-02
  23.020  0.929E-02  0.889E-02  0.929E-02  0.889E-02
